File: src/nomad_auto_xrd/example_uploads/auto_xrd/Spectra/mittma_0019_R_slowscans.xy
25	2151.667	25	2006.667
25.04	2006.667	25.04	1990
25.08	2105	25.08	1953.333
25.12	1936.667	25.12	2083.333
25.16	1920	25.16	1890
25.2	1913.333	25.2	1973.333
25.24	2033.333	25.24	2005
25.28	1893.333	25.28	1998.333
25.32	1910	25.32	1953.333
25.36	1918.333	25.36	1985
25.4	1960	25.4	1858.333
25.44	1883.333	25.44	1903.333
25.48	1913.333	25.48	1865
25.52	1913.333	25.52	1966.667
25.56	1815	25.56	1900
25.6	1875	25.6	1981.667
25.64	1786.667	25.64	1866.667
25.68	1811.667	25.68	1963.333
25.72	1948.333	25.72	1880
25.76	1915	25.76	1815
25.8	1940	25.8	1846.667
25.84	1870	25.84	1883.333
25.88	1820	25.88	2003.333
25.92	1895	25.92	1910
25.96	1886.667	25.96	1796.667
26	1901.667	26	1776.667
26.04	1833.333	26.04	1871.667
26.08	1851.667	26.08	1788.333
26.12	1866.667	26.12	1898.333
26.16	1928.333	26.16	1871.667
26.2	1871.667	26.2	1866.667
26.24	1833.333	26.24	1848.333
26.28	1861.667	26.28	1803.333
26.32	1776.667	26.32	1801.667
26.36	1855	26.36	1885
26.4	1753.333	26.4	1806.667
26.44	1788.333	26.44	1701.667
26.48	1783.333	26.48	1688.333
26.52	1736.667	26.52	1671.667
26.56	1828.333	26.56	1743.333
26.6	1751.667	26.6	1740
26.64	1775	26.64	1715
26.68	1730	26.68	1726.667
26.72	1751.667	26.72	1696.667
26.76	1798.333	26.76	1710
26.8	1775	26.8	1655
26.84	1708.333	26.84	1698.333
26.88	1768.333	26.88	1755
26.92	1835	26.92	1796.667
26.96	1626.667	26.96	1708.333
27	1725	27	1623.333
27.04	1740	27.04	1680
27.08	1723.333	27.08	1710
27.12	1790	27.12	1760
27.16	1738.333	27.16	1671.667
27.2	1741.667	27.2	1723.333
27.24	1736.667	27.24	1583.333
27.28	1683.333	27.28	1670
27.32	1706.667	27.32	1708.333
27.36	1705	27.36	1613.333
27.4	1745	27.4	1638.333
27.44	1781.667	27.44	1631.667
27.48	1641.667	27.48	1686.667
27.52	1726.667	27.52	1770
27.56	1805	27.56	1688.333
27.6	1893.333	27.6	1690
27.64	1895	27.64	1675
27.68	1850	27.68	1743.333
27.72	1983.333	27.72	1730
27.76	1896.667	27.76	1788.333
27.8	1911.667	27.8	1685
27.84	1860	27.84	1706.667
27.88	1855	27.88	1706.667
27.92	1775	27.92	1691.667
27.96	1738.333	27.96	1708.333
28	1736.667	28	1676.667
28.04	1606.667	28.04	1706.667
28.08	1611.667	28.08	1586.667
28.12	1668.333	28.12	1603.333
28.16	1560	28.16	1563.333
28.2	1563.333	28.2	1550
28.24	1540	28.24	1446.667
28.28	1650	28.28	1526.667
28.32	1510	28.32	1543.333
28.36	1581.667	28.36	1511.667
28.4	1575	28.4	1521.667
28.44	1441.667	28.44	1445
28.48	1533.333	28.48	1516.667
28.52	1461.667	28.52	1495
28.56	1490	28.56	1423.333
28.6	1506.667	28.6	1460
28.64	1455	28.64	1430
28.68	1458.333	28.68	1451.667
28.72	1480	28.72	1448.333
28.76	1465	28.76	1478.333
28.8	1488.333	28.8	1541.667
28.84	1460	28.84	1481.667
28.88	1503.333	28.88	1471.667
28.92	1436.667	28.92	1555
28.96	1486.667	28.96	1353.333
29	1390	29	1398.333
29.04	1466.667	29.04	1395
29.08	1393.333	29.08	1365
29.12	1425	29.12	1453.333
29.16	1505	29.16	1446.667
29.2	1426.667	29.2	1421.667
29.24	1416.667	29.24	1395
29.28	1481.667	29.28	1331.667
29.32	1426.667	29.32	1373.333
29.36	1435	29.36	1466.667
29.4	1426.667	29.4	1458.333
29.44	1390	29.44	1355
29.48	1378.333	29.48	1386.667
29.52	1418.333	29.52	1395
29.56	1346.667	29.56	1363.333
29.6	1420	29.6	1335
29.64	1366.667	29.64	1365
29.68	1445	29.68	1353.333
29.72	1446.667	29.72	1351.667
29.76	1338.333	29.76	1338.333
29.8	1333.333	29.8	1353.333
29.84	1350	29.84	1265
29.88	1330	29.88	1311.667
29.92	1378.333	29.92	1390
29.96	1373.333	29.96	1370
30	1358.333	30	1353.333
30.04	1393.333	30.04	1286.667
30.08	1345	30.08	1225
30.12	1228.333	30.12	1286.667
30.16	1295	30.16	1271.667
30.2	1291.667	30.2	1370
30.24	1301.667	30.24	1343.333
30.28	1308.333	30.28	1223.333
30.32	1306.667	30.32	1320
30.36	1346.667	30.36	1271.667
30.4	1328.333	30.4	1343.333
30.44	1283.333	30.44	1295
30.48	1255	30.48	1285
30.52	1311.667	30.52	1215
30.56	1220	30.56	1306.667
30.6	1360	30.6	1325
30.64	1281.667	30.64	1253.333
30.68	1261.667	30.68	1291.667
30.72	1300	30.72	1238.333
30.76	1275	30.76	1295
30.8	1268.333	30.8	1268.333
30.84	1243.333	30.84	1256.667
30.88	1205	30.88	1166.667
30.92	1275	30.92	1210
30.96	1220	30.96	1233.333
31	1210	31	1188.333
31.04	1240	31.04	1213.333
31.08	1233.333	31.08	1195
31.12	1243.333	31.12	1231.667
31.16	1161.667	31.16	1165
31.2	1211.667	31.2	1193.333
31.24	1220	31.24	1201.667
31.28	1213.333	31.28	1131.667
31.32	1105	31.32	1240
31.36	1220	31.36	1221.667
31.4	1201.667	31.4	1190
31.44	1120	31.44	1235
31.48	1213.333	31.48	1163.333
31.52	1195	31.52	1188.333
31.56	1156.667	31.56	1176.667
31.6	1200	31.6	1276.667
31.64	1188.333	31.64	1243.333
31.68	1223.333	31.68	1158.333
31.72	1251.667	31.72	1191.667
31.76	1283.333	31.76	1180
31.8	1330	31.8	1178.333
31.84	1251.667	31.84	1183.333
31.88	1318.333	31.88	1268.333
31.92	1205	31.92	1298.333
31.96	1273.333	31.96	1275
32	1251.667	32	1251.667
32.04	1315	32.04	1235
32.08	1333.333	32.08	1156.667
32.12	1316.667	32.12	1293.333
32.16	1296.667	32.16	1226.667
32.2	1231.667	32.2	1263.333
32.24	1265	32.24	1210
32.28	1246.667	32.28	1238.333
32.32	1253.333	32.32	1090
32.36	1210	32.36	1148.333
32.4	1206.667	32.4	1115
32.44	1088.333	32.44	1075
32.48	1133.333	32.48	1060
32.52	1078.333	32.52	1128.333
32.56	1096.667	32.56	1083.333
32.6	1190	32.6	1060
32.64	1100	32.64	1031.667
32.68	1145	32.68	1073.333
32.72	1055	32.72	998.3333
32.76	1031.667	32.76	1021.667
32.8	1080	32.8	1051.667
32.84	1073.333	32.84	1043.333
32.88	1081.667	32.88	1016.667
32.92	1070	32.92	1030
32.96	1066.667	32.96	1063.333
33	1043.333	33	1083.333
33.04	1093.333	33.04	1086.667
33.08	1055	33.08	986.6667
33.12	971.6667	33.12	1095
33.16	1100	33.16	1000
33.2	1136.667	33.2	968.3333
33.24	1045	33.24	968.3333
33.28	953.3333	33.28	1003.333
33.32	1068.333	33.32	1065
33.36	1035	33.36	946.6667
33.4	978.3333	33.4	1036.667
33.44	1031.667	33.44	1033.333
33.48	1041.667	33.48	1008.333
33.52	1033.333	33.52	996.6667
33.56	1046.667	33.56	1000
33.6	976.6667	33.6	983.3333
33.64	985	33.64	958.3333
33.68	1021.667	33.68	995
33.72	905	33.72	955
33.76	910	33.76	975
33.8	936.6667	33.8	1003.333
33.84	963.3333	33.84	955
33.88	928.3333	33.88	1005
33.92	958.3333	33.92	955
33.96	961.6667	33.96	858.3333
34	968.3333	34	918.3333
34.04	863.3333	34.04	985
34.08	986.6667	34.08	1011.667
34.12	921.6667	34.12	915
34.16	888.3333	34.16	891.6667
34.2	931.6667	34.2	931.6667
34.24	976.6667	34.24	926.6667
34.28	938.3333	34.28	988.3333
34.32	858.3333	34.32	910
34.36	870	34.36	931.6667
34.4	916.6667	34.4	928.3333
34.44	950	34.44	911.6667
34.48	910	34.48	905
34.52	880	34.52	876.6667
34.56	875	34.56	931.6667
34.6	878.3333	34.6	883.3333
34.64	848.3333	34.64	918.3333
34.68	873.3333	34.68	881.6667
34.72	961.6667	34.72	905
34.76	896.6667	34.76	841.6667
34.8	876.6667	34.8	878.3333
34.84	933.3333	34.84	943.3333
34.88	955	34.88	878.3333
34.92	943.3333	34.92	918.3333
34.96	918.3333	34.96	900
35	878.3333	35	875
35.04	893.3333	35.04	898.3333
35.08	865	35.08	900
35.12	958.3333	35.12	856.6667
35.16	833.3333	35.16	855
35.2	833.3333	35.2	855
35.24	805	35.24	886.6667
35.28	846.6667	35.28	843.3333
35.32	806.6667	35.32	888.3333
35.36	851.6667	35.36	805
35.4	870	35.4	898.3333
35.44	895	35.44	848.3333
35.48	881.6667	35.48	831.6667
35.52	783.3333	35.52	800
35.56	803.3333	35.56	790
35.6	820	35.6	813.3333
35.64	843.3333	35.64	901.6667
35.68	768.3333	35.68	793.3333
35.72	850	35.72	801.6667
35.76	810	35.76	805
35.8	845	35.8	793.3333
35.84	873.3333	35.84	795
35.88	851.6667	35.88	768.3333
35.92	853.3333	35.92	766.6667
35.96	868.3333	35.96	835
36	840	36	841.6667
36.04	828.3333	36.04	838.3333
36.08	838.3333	36.08	833.3333
36.12	785	36.12	808.3333
36.16	798.3333	36.16	793.3333
36.2	781.6667	36.2	801.6667
36.24	843.3333	36.24	768.3333
36.28	761.6667	36.28	751.6667
36.32	821.6667	36.32	778.3333
36.36	768.3333	36.36	805
36.4	831.6667	36.4	783.3333
36.44	793.3333	36.44	815
36.48	758.3333	36.48	713.3333
36.52	713.3333	36.52	745
36.56	770	36.56	765
36.6	753.3333	36.6	740
36.64	756.6667	36.64	788.3333
36.68	763.3333	36.68	773.3333
36.72	770	36.72	825
36.76	785	36.76	753.3333
36.8	803.3333	36.8	715
36.84	781.6667	36.84	718.3333
36.88	835	36.88	798.3333
36.92	766.6667	36.92	716.6667
36.96	758.3333	36.96	703.3333
37	770	37	733.3333
37.04	683.3333	37.04	710
37.08	791.6667	37.08	761.6667
37.12	708.3333	37.12	723.3333
37.16	711.6667	37.16	750
37.2	781.6667	37.2	708.3333
37.24	761.6667	37.24	763.3333
37.28	755	37.28	743.3333
37.32	810	37.32	735
37.36	731.6667	37.36	738.3333
37.4	811.6667	37.4	751.6667
37.44	771.6667	37.44	751.6667
37.48	763.3333	37.48	743.3333
37.52	720	37.52	751.6667
37.56	760	37.56	715
37.6	725	37.6	698.3333
37.64	693.3333	37.64	660
37.68	693.3333	37.68	738.3333
37.72	746.6667	37.72	698.3333
37.76	748.3333	37.76	730
37.8	740	37.8	735
37.84	673.3333	37.84	678.3333
37.88	701.6667	37.88	703.3333
37.92	665	37.92	655
37.96	636.6667	37.96	751.6667
38	706.6667	38	751.6667
38.04	715	38.04	706.6667
38.08	710	38.08	695
38.12	666.6667	38.12	686.6667
38.16	673.3333	38.16	666.6667
38.2	676.6667	38.2	698.3333
38.24	726.6667	38.24	638.3333
38.28	701.6667	38.28	721.6667
38.32	718.3333	38.32	638.3333
38.36	678.3333	38.36	640
38.4	696.6667	38.4	781.6667
38.44	685	38.44	596.6667
38.48	705	38.48	631.6667
38.52	708.3333	38.52	671.6667
38.56	598.3333	38.56	661.6667
38.6	685	38.6	663.3333
38.64	646.6667	38.64	676.6667
38.68	666.6667	38.68	668.3333
38.72	648.3333	38.72	663.3333
38.76	693.3333	38.76	630
38.8	685	38.8	666.6667
38.84	646.6667	38.84	636.6667
38.88	696.6667	38.88	570
38.92	646.6667	38.92	640
38.96	688.3333	38.96	668.3333
39	658.3333	39	623.3333
39.04	668.3333	39.04	601.6667
39.08	671.6667	39.08	615
39.12	655	39.12	618.3333
39.16	643.3333	39.16	606.6667
39.2	600	39.2	705
39.24	660	39.24	651.6667
39.28	588.3333	39.28	633.3333
39.32	688.3333	39.32	638.3333
39.36	605	39.36	616.6667
39.4	636.6667	39.4	671.6667
39.44	648.3333	39.44	610
39.48	646.6667	39.48	611.6667
39.52	623.3333	39.52	663.3333
39.56	640	39.56	615
39.6	646.6667	39.6	573.3333
39.64	601.6667	39.64	613.3333
39.68	646.6667	39.68	635
39.72	593.3333	39.72	616.6667
39.76	615	39.76	606.6667
39.8	575	39.8	563.3333
39.84	606.6667	39.84	628.3333
39.88	603.3333	39.88	605
39.92	580	39.92	625
39.96	576.6667	39.96	650
40	575	40	600
40.04	615	40.04	588.3333
40.08	601.6667	40.08	660
40.12	583.3333	40.12	616.6667
40.16	620	40.16	655
40.2	618.3333	40.2	573.3333
40.24	606.6667	40.24	590
40.28	596.6667	40.28	566.6667
40.32	560	40.32	553.3333
40.36	545	40.36	615
40.4	560	40.4	608.3333
40.44	596.6667	40.44	583.3333
40.48	603.3333	40.48	570
40.52	588.3333	40.52	555
40.56	583.3333	40.56	570
40.6	570	40.6	548.3333
40.64	571.6667	40.64	563.3333
40.68	580	40.68	561.6667
40.72	573.3333	40.72	565
40.76	555	40.76	555
40.8	605	40.8	565
40.84	588.3333	40.84	598.3333
40.88	576.6667	40.88	538.3333
40.92	541.6667	40.92	586.6667
40.96	580	40.96	581.6667
41	580	41	571.6667
41.04	558.3333	41.04	615
41.08	536.6667	41.08	506.6667
41.12	561.6667	41.12	493.3333
41.16	505	41.16	585
41.2	608.3333	41.2	533.3333
41.24	576.6667	41.24	575
41.28	550	41.28	561.6667
41.32	550	41.32	541.6667
41.36	530	41.36	578.3333
41.4	610	41.4	553.3333
41.44	538.3333	41.44	531.6667
41.48	573.3333	41.48	545
41.52	548.3333	41.52	530
41.56	601.6667	41.56	511.6667
41.6	558.3333	41.6	543.3333
41.64	518.3333	41.64	526.6667
41.68	531.6667	41.68	543.3333
41.72	583.3333	41.72	561.6667
41.76	553.3333	41.76	503.3333
41.8	548.3333	41.8	505
41.84	566.6667	41.84	555
41.88	530	41.88	476.6667
41.92	536.6667	41.92	565
41.96	536.6667	41.96	543.3333
42	503.3333	42	510
42.04	590	42.04	498.3333
42.08	558.3333	42.08	515
42.12	526.6667	42.12	526.6667
42.16	516.6667	42.16	503.3333
42.2	485	42.2	496.6667
42.24	505	42.24	501.6667
42.28	520	42.28	495
42.32	550	42.32	475
42.36	525	42.36	536.6667
42.4	540	42.4	551.6667
42.44	565	42.44	505
42.48	545	42.48	476.6667
42.52	535	42.52	521.6667
42.56	496.6667	42.56	450
42.6	551.6667	42.6	480
42.64	495	42.64	540
42.68	528.3333	42.68	465
42.72	501.6667	42.72	526.6667
42.76	496.6667	42.76	520
42.8	470	42.8	548.3333
42.84	500	42.84	515
42.88	503.3333	42.88	503.3333
42.92	493.3333	42.92	483.3333
42.96	530	42.96	476.6667
43	523.3333	43	491.6667
43.04	500	43.04	511.6667
43.08	523.3333	43.08	488.3333
43.12	506.6667	43.12	478.3333
43.16	461.6667	43.16	421.6667
43.2	486.6667	43.2	458.3333
43.24	463.3333	43.24	481.6667
43.28	496.6667	43.28	476.6667
43.32	531.6667	43.32	488.3333
43.36	526.6667	43.36	451.6667
43.4	445	43.4	496.6667
43.44	456.6667	43.44	498.3333
43.48	506.6667	43.48	451.6667
43.52	481.6667	43.52	496.6667
43.56	503.3333	43.56	480
43.6	463.3333	43.6	471.6667
43.64	515	43.64	501.6667
43.68	483.3333	43.68	483.3333
43.72	476.6667	43.72	453.3333
43.76	478.3333	43.76	460
43.8	470	43.8	446.6667
43.84	485	43.84	473.3333
43.88	446.6667	43.88	446.6667
43.92	493.3333	43.92	501.6667
43.96	466.6667	43.96	461.6667
44	456.6667	44	488.3333
44.04	515	44.04	426.6667
44.08	535	44.08	451.6667
44.12	428.3333	44.12	441.6667
44.16	470	44.16	476.6667
44.2	491.6667	44.2	460
44.24	460	44.24	440
44.28	456.6667	44.28	461.6667
44.32	430	44.32	473.3333
44.36	485	44.36	470
44.4	496.6667	44.4	435
44.44	481.6667	44.44	451.6667
44.48	440	44.48	433.3333
44.52	421.6667	44.52	406.6667
44.56	446.6667	44.56	445
44.6	456.6667	44.6	466.6667
44.64	463.3333	44.64	453.3333
44.68	455	44.68	455
44.72	438.3333	44.72	451.6667
44.76	483.3333	44.76	443.3333
44.8	416.6667	44.8	438.3333
44.84	485	44.84	461.6667
44.88	441.6667	44.88	493.3333
44.92	441.6667	44.92	438.3333
44.96	475	44.96	433.3333
45	485	45	416.6667
45.04	450	45.04	483.3333
45.08	445	45.08	431.6667
45.12	445	45.12	431.6667
45.16	460	45.16	401.6667
45.2	408.3333	45.2	428.3333
45.24	440	45.24	383.3333
45.28	435	45.28	408.3333
45.32	410	45.32	395
45.36	426.6667	45.36	456.6667
45.4	435	45.4	441.6667
45.44	460	45.44	406.6667
45.48	426.6667	45.48	420
45.52	458.3333	45.52	431.6667
45.56	463.3333	45.56	420
45.6	471.6667	45.6	451.6667
45.64	476.6667	45.64	456.6667
45.68	441.6667	45.68	413.3333
45.72	450	45.72	438.3333
45.76	455	45.76	406.6667
45.8	436.6667	45.8	413.3333
45.84	473.3333	45.84	455
45.88	490	45.88	418.3333
45.92	478.3333	45.92	451.6667
45.96	451.6667	45.96	413.3333
46	493.3333	46	463.3333
46.04	491.6667	46.04	476.6667
46.08	516.6667	46.08	438.3333
46.12	531.6667	46.12	510
46.16	573.3333	46.16	440
46.2	543.3333	46.2	473.3333
46.24	615	46.24	456.6667
46.28	555	46.28	438.3333
46.32	531.6667	46.32	530
46.36	538.3333	46.36	480
46.4	516.6667	46.4	453.3333
46.44	490	46.44	433.3333
46.48	506.6667	46.48	426.6667
46.52	456.6667	46.52	453.3333
46.56	488.3333	46.56	418.3333
46.6	446.6667	46.6	431.6667
46.64	521.6667	46.64	375
46.68	451.6667	46.68	448.3333
46.72	485	46.72	450
46.76	468.3333	46.76	418.3333
46.8	453.3333	46.8	396.6667
46.84	381.6667	46.84	443.3333
46.88	441.6667	46.88	433.3333
46.92	390	46.92	381.6667
46.96	426.6667	46.96	431.6667
47	410	47	391.6667
47.04	390	47.04	376.6667
47.08	385	47.08	395
47.12	423.3333	47.12	400
47.16	441.6667	47.16	375
47.2	420	47.2	395
47.24	393.3333	47.24	368.3333
47.28	371.6667	47.28	351.6667
47.32	393.3333	47.32	373.3333
47.36	380	47.36	341.6667
47.4	388.3333	47.4	423.3333
47.44	378.3333	47.44	426.6667
47.48	438.3333	47.48	418.3333
47.52	398.3333	47.52	391.6667
47.56	405	47.56	368.3333
47.6	396.6667	47.6	396.6667
47.64	395	47.64	380
47.68	386.6667	47.68	386.6667
47.72	406.6667	47.72	370
47.76	376.6667	47.76	401.6667
47.8	378.3333	47.8	368.3333
47.84	380	47.84	358.3333
47.88	400	47.88	338.3333
47.92	431.6667	47.92	366.6667
47.96	386.6667	47.96	420
48	383.3333	48	378.3333
48.04	395	48.04	371.6667
48.08	353.3333	48.08	348.3333
48.12	396.6667	48.12	378.3333
48.16	375	48.16	351.6667
48.2	338.3333	48.2	398.3333
48.24	351.6667	48.24	376.6667
48.28	366.6667	48.28	391.6667
48.32	373.3333	48.32	360
48.36	390	48.36	411.6667
48.4	378.3333	48.4	365
48.44	370	48.44	333.3333
48.48	390	48.48	333.3333
48.52	365	48.52	376.6667
48.56	385	48.56	363.3333
48.6	383.3333	48.6	358.3333
48.64	351.6667	48.64	386.6667
48.68	401.6667	48.68	360
48.72	355	48.72	363.3333
48.76	378.3333	48.76	381.6667
48.8	346.6667	48.8	398.3333
48.84	418.3333	48.84	395
48.88	401.6667	48.88	348.3333
48.92	371.6667	48.92	360
48.96	393.3333	48.96	360
49	380	49	353.3333
49.04	365	49.04	365
49.08	363.3333	49.08	370
49.12	353.3333	49.12	360
49.16	370	49.16	365
49.2	356.6667	49.2	350
49.24	348.3333	49.24	343.3333
49.28	316.6667	49.28	378.3333
49.32	383.3333	49.32	341.6667
49.36	370	49.36	376.6667
49.4	385	49.4	345
49.44	378.3333	49.44	326.6667
49.48	323.3333	49.48	365
49.52	370	49.52	358.3333
49.56	348.3333	49.56	345
49.6	366.6667	49.6	358.3333
49.64	380	49.64	348.3333
49.68	395	49.68	335
49.72	360	49.72	326.6667
49.76	321.6667	49.76	346.6667
49.8	378.3333	49.8	296.6667
49.84	350	49.84	346.6667
49.88	341.6667	49.88	351.6667
49.92	381.6667	49.92	305
49.96	318.3333	49.96	346.6667
50	351.6667	50	328.3333
50.04	341.6667	50.04	335
50.08	311.6667	50.08	383.3333
50.12	368.3333	50.12	331.6667
50.16	378.3333	50.16	356.6667
50.2	333.3333	50.2	316.6667
50.24	378.3333	50.24	345
50.28	340	50.28	356.6667
50.32	335	50.32	368.3333
50.36	353.3333	50.36	351.6667
50.4	358.3333	50.4	363.3333
50.44	356.6667	50.44	371.6667
50.48	370	50.48	341.6667
50.52	356.6667	50.52	333.3333
50.56	323.3333	50.56	338.3333
50.6	358.3333	50.6	340
50.64	338.3333	50.64	300
50.68	321.6667	50.68	325
50.72	355	50.72	336.6667
50.76	386.6667	50.76	323.3333
50.8	335	50.8	311.6667
50.84	361.6667	50.84	336.6667
50.88	360	50.88	361.6667
50.92	313.3333	50.92	318.3333
50.96	363.3333	50.96	308.3333
51	343.3333	51	368.3333
51.04	351.6667	51.04	340
51.08	333.3333	51.08	333.3333
51.12	341.6667	51.12	350
51.16	341.6667	51.16	343.3333
51.2	353.3333	51.2	353.3333
51.24	336.6667	51.24	348.3333
51.28	345	51.28	318.3333
51.32	380	51.32	330
51.36	336.6667	51.36	313.3333
51.4	360	51.4	285
51.44	345	51.44	296.6667
51.48	335	51.48	313.3333
51.52	363.3333	51.52	328.3333
51.56	333.3333	51.56	330
51.6	303.3333	51.6	361.6667
51.64	308.3333	51.64	311.6667
51.68	306.6667	51.68	321.6667
51.72	363.3333	51.72	330
51.76	368.3333	51.76	350
51.8	338.3333	51.8	290
51.84	325	51.84	303.3333
51.88	338.3333	51.88	353.3333
51.92	320	51.92	350
51.96	318.3333	51.96	326.6667
52	333.3333	52	358.3333
52.04	305	52.04	351.6667
52.08	328.3333	52.08	291.6667
52.12	361.6667	52.12	308.3333
52.16	316.6667	52.16	326.6667
52.2	308.3333	52.2	305
52.24	311.6667	52.24	318.3333
52.28	340	52.28	315
52.32	290	52.32	331.6667
52.36	385	52.36	316.6667
52.4	331.6667	52.4	318.3333
52.44	330	52.44	330
52.48	333.3333	52.48	290
52.52	270	52.52	276.6667
52.56	333.3333	52.56	340
52.6	298.3333	52.6	305
52.64	318.3333	52.64	290
52.68	318.3333	52.68	315
52.72	301.6667	52.72	308.3333
52.76	320	52.76	313.3333
52.8	325	52.8	305
52.84	313.3333	52.84	295
52.88	331.6667	52.88	288.3333
52.92	303.3333	52.92	333.3333
52.96	291.6667	52.96	306.6667
53	295	53	291.6667
53.04	310	53.04	366.6667
53.08	311.6667	53.08	316.6667
53.12	310	53.12	331.6667
53.16	348.3333	53.16	306.6667
53.2	291.6667	53.2	323.3333
53.24	296.6667	53.24	306.6667
53.28	286.6667	53.28	263.3333
53.32	350	53.32	285
53.36	300	53.36	338.3333
53.4	281.6667	53.4	326.6667
53.44	340	53.44	318.3333
53.48	291.6667	53.48	316.6667
53.52	291.6667	53.52	325
53.56	315	53.56	316.6667
53.6	316.6667	53.6	305
53.64	291.6667	53.64	336.6667
53.68	341.6667	53.68	300
53.72	286.6667	53.72	321.6667
53.76	351.6667	53.76	305
53.8	321.6667	53.8	326.6667
53.84	321.6667	53.84	325
53.88	310	53.88	296.6667
53.92	295	53.92	335
53.96	295	53.96	308.3333
54	313.3333	54	310
54.04	300	54.04	311.6667
54.08	308.3333	54.08	330
54.12	353.3333	54.12	293.3333
54.16	290	54.16	320
54.2	295	54.2	280
54.24	306.6667	54.24	286.6667
54.28	318.3333	54.28	315
54.32	301.6667	54.32	301.6667
54.36	278.3333	54.36	336.6667
54.4	318.3333	54.4	300
54.44	325	54.44	290
54.48	323.3333	54.48	283.3333
54.52	298.3333	54.52	306.6667
54.56	293.3333	54.56	316.6667
54.6	356.6667	54.6	333.3333
54.64	343.3333	54.64	310
54.68	326.6667	54.68	295
54.72	293.3333	54.72	338.3333
54.76	306.6667	54.76	261.6667
54.8	320	54.8	293.3333
54.84	330	54.84	301.6667
54.88	303.3333	54.88	326.6667
54.92	345	54.92	308.3333
54.96	390	54.96	301.6667
55	298.3333	55	273.3333
55.04	290	55.04	315
55.08	286.6667	55.08	290
55.12	326.6667	55.12	288.3333
55.16	313.3333	55.16	318.3333
55.2	271.6667	55.2	308.3333
55.24	308.3333	55.24	255
55.28	300	55.28	268.3333
55.32	310	55.32	295
55.36	293.3333	55.36	315
55.4	293.3333	55.4	278.3333
55.44	296.6667	55.44	298.3333
55.48	313.3333	55.48	323.3333
55.52	306.6667	55.52	290
55.56	295	55.56	256.6667
55.6	345	55.6	295
55.64	326.6667	55.64	293.3333
55.68	323.3333	55.68	251.6667
55.72	291.6667	55.72	275
55.76	306.6667	55.76	320
55.8	293.3333	55.8	283.3333
55.84	311.6667	55.84	285
55.88	315	55.88	315
55.92	295	55.92	285
55.96	300	55.96	263.3333
56	318.3333	56	301.6667
56.04	281.6667	56.04	316.6667
56.08	263.3333	56.08	291.6667
56.12	295	56.12	285
56.16	296.6667	56.16	278.3333
56.2	265	56.2	285
56.24	283.3333	56.24	331.6667
56.28	315	56.28	311.6667
56.32	270	56.32	316.6667
56.36	293.3333	56.36	256.6667
56.4	306.6667	56.4	290
56.44	313.3333	56.44	313.3333
56.48	353.3333	56.48	316.6667
56.52	320	56.52	331.6667
56.56	325	56.56	290
56.6	281.6667	56.6	295
56.64	290	56.64	291.6667
56.68	270	56.68	278.3333
56.72	291.6667	56.72	308.3333
56.76	338.3333	56.76	300
56.8	295	56.8	306.6667
56.84	258.3333	56.84	278.3333
56.88	280	56.88	291.6667
56.92	298.3333	56.92	300
56.96	285	56.96	265
57	273.3333	57	316.6667
57.04	281.6667	57.04	278.3333
57.08	273.3333	57.08	278.3333
57.12	276.6667	57.12	303.3333
57.16	283.3333	57.16	310
57.2	296.6667	57.2	300
57.24	308.3333	57.24	296.6667
57.28	345	57.28	305
57.32	330	57.32	301.6667
57.36	340	57.36	283.3333
57.4	291.6667	57.4	295
57.44	288.3333	57.44	316.6667
57.48	288.3333	57.48	253.3333
57.52	296.6667	57.52	296.6667
57.56	338.3333	57.56	276.6667
57.6	306.6667	57.6	263.3333
57.64	333.3333	57.64	265
57.68	331.6667	57.68	310
57.72	263.3333	57.72	301.6667
57.76	310	57.76	275
57.8	288.3333	57.8	321.6667
57.84	325	57.84	295
57.88	303.3333	57.88	285
57.92	300	57.92	263.3333
57.96	305	57.96	303.3333
58	296.6667	58	313.3333
58.04	296.6667	58.04	301.6667
58.08	295	58.08	263.3333
58.12	296.6667	58.12	338.3333
58.16	278.3333	58.16	328.3333
58.2	278.3333	58.2	338.3333
58.24	288.3333	58.24	298.3333
58.28	283.3333	58.28	313.3333
58.32	303.3333	58.32	288.3333
58.36	273.3333	58.36	326.6667
58.4	318.3333	58.4	340
58.44	301.6667	58.44	305
58.48	315	58.48	320
58.52	293.3333	58.52	298.3333
58.56	316.6667	58.56	288.3333
58.6	258.3333	58.6	283.3333
58.64	278.3333	58.64	281.6667
58.68	278.3333	58.68	285
58.72	308.3333	58.72	310
58.76	295	58.76	285
58.8	288.3333	58.8	298.3333
58.84	301.6667	58.84	306.6667
58.88	273.3333	58.88	328.3333
58.92	315	58.92	318.3333
58.96	255	58.96	305
59	278.3333	59	315
59.04	308.3333	59.04	290
59.08	266.6667	59.08	286.6667
59.12	323.3333	59.12	326.6667
59.16	300	59.16	316.6667
59.2	336.6667	59.2	293.3333
59.24	301.6667	59.24	310
59.28	316.6667	59.28	285
59.32	346.6667	59.32	321.6667
59.36	281.6667	59.36	311.6667
59.4	328.3333	59.4	313.3333
59.44	283.3333	59.44	306.6667
59.48	300	59.48	316.6667
59.52	291.6667	59.52	285
59.56	330	59.56	311.6667
59.6	300	59.6	296.6667
59.64	333.3333	59.64	316.6667
59.68	308.3333	59.68	311.6667
59.72	333.3333	59.72	320
59.76	311.6667	59.76	300
59.8	311.6667	59.8	300
59.84	301.6667	59.84	301.6667
59.88	306.6667	59.88	321.6667
59.92	328.3333	59.92	305
59.96	323.3333	59.96	328.3333
60	300	60	285
60.04	265	60.04	325
60.08	333.3333	60.08	315
60.12	300	60.12	285
60.16	293.3333	60.16	333.3333
60.2	288.3333	60.2	323.3333
60.24	328.3333	60.24	296.6667
60.28	308.3333	60.28	353.3333
60.32	320	60.32	316.6667
60.36	360	60.36	308.3333
60.4	288.3333	60.4	273.3333
60.44	335	60.44	301.6667
60.48	310	60.48	325
60.52	328.3333	60.52	311.6667
60.56	311.6667	60.56	326.6667
60.6	305	60.6	300
60.64	300	60.64	303.3333
60.68	341.6667	60.68	340
60.72	308.3333	60.72	355
60.76	380	60.76	306.6667
60.8	321.6667	60.8	326.6667
60.84	376.6667	60.84	346.6667
60.88	338.3333	60.88	323.3333
60.92	320	60.92	331.6667
60.96	311.6667	60.96	298.3333
61	335	61	311.6667
61.04	365	61.04	346.6667
61.08	356.6667	61.08	308.3333
61.12	350	61.12	333.3333
61.16	326.6667	61.16	371.6667
61.2	336.6667	61.2	328.3333
61.24	341.6667	61.24	346.6667
61.28	356.6667	61.28	330
61.32	303.3333	61.32	310
61.36	355	61.36	313.3333
61.4	338.3333	61.4	348.3333
61.44	341.6667	61.44	343.3333
61.48	321.6667	61.48	331.6667
61.52	355	61.52	281.6667
61.56	340	61.56	343.3333
61.6	305	61.6	326.6667
61.64	316.6667	61.64	360
61.68	345	61.68	346.6667
61.72	326.6667	61.72	356.6667
61.76	351.6667	61.76	316.6667
61.8	323.3333	61.8	310
61.84	350	61.84	338.3333
61.88	346.6667	61.88	391.6667
61.92	363.3333	61.92	363.3333
61.96	328.3333	61.96	368.3333
62	386.6667	62	333.3333
62.04	396.6667	62.04	320
62.08	361.6667	62.08	358.3333
62.12	325	62.12	323.3333
62.16	368.3333	62.16	376.6667
62.2	361.6667	62.2	336.6667
62.24	370	62.24	353.3333
62.28	375	62.28	391.6667
62.32	331.6667	62.32	355
62.36	378.3333	62.36	373.3333
62.4	366.6667	62.4	360
62.44	358.3333	62.44	331.6667
62.48	383.3333	62.48	328.3333
62.52	405	62.52	371.6667
62.56	400	62.56	338.3333
62.6	385	62.6	380
62.64	360	62.64	333.3333
62.68	413.3333	62.68	380
62.72	371.6667	62.72	323.3333
62.76	356.6667	62.76	351.6667
62.8	386.6667	62.8	370
62.84	370	62.84	365
62.88	348.3333	62.88	350
62.92	383.3333	62.92	365
62.96	363.3333	62.96	343.3333
63	360	63	383.3333
63.04	368.3333	63.04	335
63.08	341.6667	63.08	325
63.12	375	63.12	406.6667
63.16	346.6667	63.16	418.3333
63.2	363.3333	63.2	411.6667
63.24	398.3333	63.24	396.6667
63.28	378.3333	63.28	363.3333
63.32	385	63.32	355
63.36	383.3333	63.36	403.3333
63.4	361.6667	63.4	366.6667
63.44	418.3333	63.44	400
63.48	403.3333	63.48	368.3333
63.52	353.3333	63.52	388.3333
63.56	391.6667	63.56	368.3333
63.6	425	63.6	368.3333
63.64	430	63.64	346.6667
63.68	386.6667	63.68	366.6667
63.72	370	63.72	373.3333
63.76	376.6667	63.76	405
63.8	380	63.8	356.6667
63.84	371.6667	63.84	351.6667
63.88	390	63.88	406.6667
63.92	426.6667	63.92	388.3333
63.96	353.3333	63.96	398.3333
64	373.3333	64	390
64.04	386.6667	64.04	433.3333
64.08	360	64.08	410
64.12	383.3333	64.12	356.6667
64.16	378.3333	64.16	373.3333
64.2	365	64.2	395
64.24	383.3333	64.24	380
64.28	376.6667	64.28	406.6667
64.32	353.3333	64.32	408.3333
64.36	356.6667	64.36	375
64.4	386.6667	64.4	408.3333
64.44	421.6667	64.44	371.6667
64.48	393.3333	64.48	411.6667
64.52	360	64.52	403.3333
64.56	398.3333	64.56	366.6667
64.6	370	64.6	385
64.64	356.6667	64.64	378.3333
64.68	355	64.68	376.6667
64.72	405	64.72	363.3333
64.76	416.6667	64.76	388.3333
64.8	405	64.8	408.3333
64.84	396.6667	64.84	385
64.88	376.6667	64.88	386.6667
64.92	373.3333	64.92	403.3333
64.96	388.3333	64.96	403.3333
65	371.6667	65	401.6667
65.04	385	65.04	398.3333
65.08	340	65.08	336.6667
65.12	361.6667	65.12	345
65.16	358.3333	65.16	383.3333
65.2	376.6667	65.2	380
65.24	383.3333	65.24	386.6667
65.28	401.6667	65.28	335
65.32	371.6667	65.32	390
65.36	388.3333	65.36	373.3333
65.4	346.6667	65.4	400
65.44	408.3333	65.44	391.6667
65.48	375	65.48	378.3333
65.52	411.6667	65.52	413.3333
65.56	330	65.56	388.3333
65.6	358.3333	65.6	358.3333
65.64	335	65.64	353.3333
65.68	343.3333	65.68	443.3333
65.72	390	65.72	378.3333
65.76	383.3333	65.76	345
65.8	365	65.8	375
65.84	343.3333	65.84	386.6667
65.88	373.3333	65.88	346.6667
65.92	360	65.92	385
65.96	385	65.96	351.6667
66	350	66	348.3333
66.04	400	66.04	316.6667
66.08	338.3333	66.08	336.6667
66.12	380	66.12	368.3333
66.16	403.3333	66.16	380
66.2	370	66.2	345
66.24	365	66.24	346.6667
66.28	376.6667	66.28	363.3333
66.32	343.3333	66.32	353.3333
66.36	398.3333	66.36	323.3333
66.4	383.3333	66.4	338.3333
66.44	306.6667	66.44	338.3333
66.48	328.3333	66.48	425
66.52	358.3333	66.52	326.6667
66.56	348.3333	66.56	398.3333
66.6	345	66.6	373.3333
66.64	326.6667	66.64	331.6667
66.68	323.3333	66.68	358.3333
66.72	311.6667	66.72	360
66.76	331.6667	66.76	388.3333
66.8	338.3333	66.8	358.3333
66.84	358.3333	66.84	363.3333
66.88	350	66.88	343.3333
66.92	316.6667	66.92	286.6667
66.96	341.6667	66.96	366.6667
67	365	67	336.6667
67.04	358.3333	67.04	310
67.08	340	67.08	328.3333
67.12	318.3333	67.12	335
67.16	356.6667	67.16	316.6667
67.2	391.6667	67.2	343.3333
67.24	313.3333	67.24	345
67.28	293.3333	67.28	363.3333
67.32	320	67.32	318.3333
67.36	301.6667	67.36	331.6667
67.4	326.6667	67.4	340
67.44	288.3333	67.44	328.3333
67.48	333.3333	67.48	328.3333
67.52	340	67.52	343.3333
67.56	338.3333	67.56	360
67.6	358.3333	67.6	325
67.64	358.3333	67.64	365
67.68	328.3333	67.68	338.3333
67.72	311.6667	67.72	311.6667
67.76	323.3333	67.76	311.6667
67.8	350	67.8	313.3333
67.84	308.3333	67.84	340
67.88	295	67.88	356.6667
67.92	336.6667	67.92	305
67.96	325	67.96	328.3333
68	298.3333	68	326.6667
68.04	326.6667	68.04	340
68.08	315	68.08	308.3333
68.12	325	68.12	318.3333
68.16	288.3333	68.16	311.6667
68.2	325	68.2	301.6667
68.24	320	68.24	346.6667
68.28	313.3333	68.28	321.6667
68.32	338.3333	68.32	361.6667
68.36	318.3333	68.36	373.3333
68.4	343.3333	68.4	368.3333
68.44	348.3333	68.44	315
68.48	295	68.48	336.6667
68.52	326.6667	68.52	348.3333
68.56	306.6667	68.56	303.3333
68.6	335	68.6	335
68.64	325	68.64	360
68.68	315	68.68	343.3333
68.72	303.3333	68.72	295
68.76	286.6667	68.76	336.6667
68.8	318.3333	68.8	321.6667
68.84	328.3333	68.84	310
68.88	321.6667	68.88	295
68.92	288.3333	68.92	293.3333
68.96	340	68.96	320
69	315	69	328.3333
69.04	360	69.04	340
69.08	311.6667	69.08	315
69.12	306.6667	69.12	351.6667
69.16	316.6667	69.16	296.6667
69.2	283.3333	69.2	316.6667
69.24	343.3333	69.24	295
69.28	281.6667	69.28	296.6667
69.32	303.3333	69.32	328.3333
69.36	283.3333	69.36	291.6667
69.4	331.6667	69.4	321.6667
69.44	290	69.44	335
69.48	301.6667	69.48	305
69.52	313.3333	69.52	326.6667
69.56	290	69.56	313.3333
69.6	300	69.6	293.3333
69.64	288.3333	69.64	311.6667
69.68	333.3333	69.68	328.3333
69.72	298.3333	69.72	301.6667
69.76	310	69.76	271.6667
69.8	283.3333	69.8	308.3333
69.84	306.6667	69.84	273.3333
69.88	298.3333	69.88	296.6667
69.92	328.3333	69.92	300
69.96	343.3333	69.96	288.3333
70	310	70	315
70.04	285	70.04	300
70.08	260	70.08	291.6667
70.12	333.3333	70.12	283.3333
70.16	295	70.16	285
70.2	280	70.2	293.3333
70.24	278.3333	70.24	303.3333
70.28	323.3333	70.28	286.6667
70.32	268.3333	70.32	311.6667
70.36	270	70.36	290
70.4	283.3333	70.4	295
70.44	275	70.44	321.6667
70.48	293.3333	70.48	256.6667
70.52	305	70.52	281.6667
70.56	313.3333	70.56	300
70.6	336.6667	70.6	270
70.64	313.3333	70.64	305
70.68	326.6667	70.68	306.6667
70.72	273.3333	70.72	305
70.76	291.6667	70.76	291.6667
70.8	301.6667	70.8	303.3333
70.84	276.6667	70.84	276.6667
70.88	295	70.88	313.3333
70.92	298.3333	70.92	321.6667
70.96	321.6667	70.96	280
71	295	71	303.3333
71.04	303.3333	71.04	330
71.08	340	71.08	345
71.12	275	71.12	303.3333
71.16	308.3333	71.16	330
71.2	276.6667	71.2	298.3333
71.24	283.3333	71.24	305
71.28	286.6667	71.28	291.6667
71.32	300	71.32	290
71.36	295	71.36	306.6667
71.4	340	71.4	296.6667
71.44	271.6667	71.44	296.6667
71.48	295	71.48	281.6667
71.52	290	71.52	313.3333
71.56	255	71.56	308.3333
71.6	250	71.6	275
71.64	293.3333	71.64	326.6667
71.68	291.6667	71.68	328.3333
71.72	291.6667	71.72	293.3333
71.76	291.6667	71.76	306.6667
71.8	238.3333	71.8	306.6667
71.84	305	71.84	343.3333
71.88	260	71.88	296.6667
71.92	301.6667	71.92	331.6667
71.96	291.6667	71.96	328.3333
72	273.3333	72	313.3333
72.04	300	72.04	293.3333
72.08	293.3333	72.08	293.3333
72.12	286.6667	72.12	305
72.16	306.6667	72.16	281.6667
72.2	250	72.2	291.6667
72.24	325	72.24	301.6667
72.28	295	72.28	281.6667
72.32	311.6667	72.32	313.3333
72.36	283.3333	72.36	311.6667
72.4	288.3333	72.4	290
72.44	281.6667	72.44	275
72.48	266.6667	72.48	276.6667
72.52	271.6667	72.52	301.6667
72.56	295	72.56	288.3333
72.6	290	72.6	315
72.64	251.6667	72.64	296.6667
72.68	331.6667	72.68	278.3333
72.72	306.6667	72.72	293.3333
72.76	280	72.76	275
72.8	258.3333	72.8	298.3333
72.84	288.3333	72.84	268.3333
72.88	291.6667	72.88	313.3333
72.92	291.6667	72.92	318.3333
72.96	275	72.96	313.3333
73	285	73	260
73.04	305	73.04	250
73.08	268.3333	73.08	316.6667
73.12	266.6667	73.12	313.3333
73.16	305	73.16	296.6667
73.2	278.3333	73.2	315
73.24	256.6667	73.24	341.6667
73.28	283.3333	73.28	320
73.32	305	73.32	326.6667
73.36	280	73.36	315
73.4	300	73.4	328.3333
73.44	353.3333	73.44	281.6667
73.48	283.3333	73.48	271.6667
73.52	318.3333	73.52	305
73.56	268.3333	73.56	288.3333
73.6	280	73.6	275
73.64	306.6667	73.64	246.6667
73.68	323.3333	73.68	295
73.72	273.3333	73.72	355
73.76	295	73.76	313.3333
73.8	313.3333	73.8	316.6667
73.84	306.6667	73.84	333.3333
73.88	313.3333	73.88	288.3333
73.92	321.6667	73.92	303.3333
73.96	331.6667	73.96	286.6667
74	278.3333	74	286.6667
74.04	266.6667	74.04	290
74.08	343.3333	74.08	326.6667
74.12	288.3333	74.12	338.3333
74.16	290	74.16	321.6667
74.2	315	74.2	286.6667
74.24	285	74.24	290
74.28	281.6667	74.28	283.3333
74.32	300	74.32	305
74.36	273.3333	74.36	278.3333
74.4	285	74.4	301.6667
74.44	276.6667	74.44	280
74.48	313.3333	74.48	273.3333
74.52	308.3333	74.52	280
74.56	298.3333	74.56	271.6667
74.6	325	74.6	276.6667
74.64	345	74.64	298.3333
74.68	295	74.68	310
74.72	315	74.72	331.6667
74.76	326.6667	74.76	296.6667
74.8	300	74.8	316.6667
74.84	283.3333	74.84	326.6667
74.88	305	74.88	280
74.92	335	74.92	331.6667
74.96	256.6667	74.96	286.6667
75	325	75	306.6667
75.04	296.6667	75.04	278.3333
75.08	298.3333	75.08	291.6667
75.12	325	75.12	275
75.16	271.6667	75.16	286.6667
75.2	295	75.2	295
75.24	283.3333	75.24	333.3333
75.28	296.6667	75.28	328.3333
75.32	321.6667	75.32	320
75.36	301.6667	75.36	276.6667
75.4	298.3333	75.4	276.6667
75.44	325	75.44	315
75.48	305	75.48	276.6667
75.52	276.6667	75.52	313.3333
75.56	311.6667	75.56	291.6667
75.6	300	75.6	303.3333
75.64	266.6667	75.64	325
75.68	280	75.68	325
75.72	296.6667	75.72	298.3333
75.76	288.3333	75.76	328.3333
75.8	303.3333	75.8	288.3333
75.84	281.6667	75.84	330
75.88	291.6667	75.88	323.3333
75.92	315	75.92	285
75.96	306.6667	75.96	298.3333
76	311.6667	76	293.3333
76.04	293.3333	76.04	315
76.08	300	76.08	278.3333
76.12	281.6667	76.12	268.3333
76.16	310	76.16	331.6667
76.2	285	76.2	308.3333
76.24	326.6667	76.24	288.3333
76.28	310	76.28	301.6667
76.32	278.3333	76.32	303.3333
76.36	300	76.36	301.6667
76.4	308.3333	76.4	295
76.44	303.3333	76.44	300
76.48	300	76.48	308.3333
76.52	326.6667	76.52	310
76.56	340	76.56	266.6667
76.6	310	76.6	298.3333
76.64	271.6667	76.64	285
76.68	248.3333	76.68	273.3333
76.72	260	76.72	263.3333
76.76	260	76.76	268.3333
76.8	321.6667	76.8	313.3333
76.84	298.3333	76.84	291.6667
76.88	285	76.88	293.3333
76.92	250	76.92	313.3333
76.96	308.3333	76.96	293.3333
77	326.6667	77	296.6667
77.04	320	77.04	313.3333
77.08	298.3333	77.08	328.3333
77.12	268.3333	77.12	318.3333
77.16	288.3333	77.16	271.6667
77.2	288.3333	77.2	270
77.24	315	77.24	320
77.28	308.3333	77.28	280
77.32	278.3333	77.32	301.6667
77.36	270	77.36	306.6667
77.4	298.3333	77.4	283.3333
77.44	265	77.44	290
77.48	308.3333	77.48	268.3333
77.52	275	77.52	303.3333
77.56	283.3333	77.56	261.6667
77.6	286.6667	77.6	316.6667
77.64	285	77.64	261.6667
77.68	253.3333	77.68	281.6667
77.72	323.3333	77.72	310
77.76	300	77.76	281.6667
77.8	270	77.8	261.6667
77.84	308.3333	77.84	276.6667
77.88	290	77.88	316.6667
77.92	273.3333	77.92	243.3333
77.96	290	77.96	278.3333
78	255	78	283.3333
78.04	305	78.04	286.6667
78.08	271.6667	78.08	273.3333
78.12	305	78.12	286.6667
78.16	310	78.16	286.6667
78.2	275	78.2	263.3333
78.24	285	78.24	291.6667
78.28	276.6667	78.28	285
78.32	306.6667	78.32	265
78.36	283.3333	78.36	290
78.4	313.3333	78.4	275
78.44	276.6667	78.44	280
78.48	273.3333	78.48	271.6667
78.52	300	78.52	280
78.56	266.6667	78.56	271.6667
78.6	241.6667	78.6	270
78.64	273.3333	78.64	291.6667
78.68	270	78.68	246.6667
78.72	293.3333	78.72	266.6667
78.76	270	78.76	245
78.8	256.6667	78.8	268.3333
78.84	285	78.84	285
78.88	245	78.88	260
78.92	265	78.92	285
78.96	255	78.96	263.3333
79	248.3333	79	246.6667
79.04	261.6667	79.04	260
79.08	300	79.08	266.6667
79.12	288.3333	79.12	248.3333
79.16	256.6667	79.16	283.3333
79.2	268.3333	79.2	260
79.24	273.3333	79.24	290
79.28	295	79.28	261.6667
79.32	255	79.32	270
79.36	243.3333	79.36	283.3333
79.4	265	79.4	241.6667
79.44	258.3333	79.44	235
79.48	303.3333	79.48	258.3333
79.52	275	79.52	285
79.56	240	79.56	255
79.6	250	79.6	253.3333
79.64	295	79.64	251.6667
79.68	270	79.68	260
79.72	260	79.72	223.3333
79.76	266.6667	79.76	261.6667
79.8	256.6667	79.8	240
79.84	250	79.84	240
79.88	270	79.88	225
79.92	255	79.92	270
79.96	250	79.96	240
80	205	80	256.6667