File: src/nomad_auto_xrd/example_uploads/getting_started/Spectra/mittma_0015_FR_0-Copy1.0_1point.xy
25	5315
25.04	5635
25.08	5460
25.12	5390
25.16	5210
25.2	5080
25.24	5280
25.28	5535
25.32	5435
25.36	5365
25.4	5365
25.44	5515
25.48	5275
25.52	5145
25.56	5235
25.6	5305
25.64	5300
25.68	5030
25.72	5215
25.76	5140
25.8	4890
25.84	5265
25.88	5110
25.92	4980
25.96	4990
26	5070
26.04	4830
26.08	4825
26.12	5015
26.16	5145
26.2	4695
26.24	4970
26.28	4660
26.32	4660
26.36	4990
26.4	4935
26.44	4530
26.48	5000
26.52	4845
26.56	4870
26.6	4440
26.64	4795
26.68	4710
26.72	4670
26.76	4815
26.8	4600
26.84	4500
26.88	4505
26.92	4855
26.96	4865
27	4440
27.04	4475
27.08	4445
27.12	4360
27.16	4750
27.2	4410
27.24	4480
27.28	4390
27.32	4390
27.36	4435
27.4	4330
27.44	4380
27.48	4490
27.52	4395
27.56	4195
27.6	4480
27.64	4305
27.68	4395
27.72	4215
27.76	4305
27.8	4515
27.84	4375
27.88	4605
27.92	4545
27.96	4295
28	4625
28.04	4685
28.08	4895
28.12	5260
28.16	5760
28.2	6630
28.24	7845
28.28	7850
28.32	7320
28.36	6200
28.4	5610
28.44	5210
28.48	4755
28.52	4575
28.56	4310
28.6	4225
28.64	4265
28.68	4045
28.72	4275
28.76	4070
28.8	4225
28.84	3710
28.88	3790
28.92	3880
28.96	3720
29	4035
29.04	4140
29.08	3760
29.12	3855
29.16	3855
29.2	3945
29.24	3935
29.28	4030
29.32	4205
29.36	4465
29.4	4415
29.44	4400
29.48	3730
29.52	3685
29.56	3745
29.6	3755
29.64	3730
29.68	3530
29.72	3655
29.76	3785
29.8	3415
29.84	3585
29.88	3665
29.92	3575
29.96	3615
30	3700
30.04	3260
30.08	3595
30.12	3420
30.16	3390
30.2	3425
30.24	3565
30.28	3350
30.32	3480
30.36	3440
30.4	3540
30.44	3510
30.48	3300
30.52	3340
30.56	3355
30.6	3270
30.64	3380
30.68	3305
30.72	3370
30.76	3590
30.8	3315
30.84	3485
30.88	3510
30.92	3420
30.96	3325
31	3270
31.04	3385
31.08	3425
31.12	3100
31.16	3135
31.2	3020
31.24	3115
31.28	3125
31.32	3240
31.36	3065
31.4	3120
31.44	3110
31.48	3195
31.52	3220
31.56	3475
31.6	3015
31.64	3450
31.68	3165
31.72	3475
31.76	3705
31.8	3970
31.84	4365
31.88	4605
31.92	5225
31.96	5165
32	4825
32.04	4540
32.08	3995
32.12	3615
32.16	3440
32.2	3075
32.24	3025
32.28	3085
32.32	3015
32.36	3010
32.4	3045
32.44	3030
32.48	2960
32.52	2860
32.56	2930
32.6	2920
32.64	3110
32.68	2910
32.72	2550
32.76	2780
32.8	2895
32.84	2610
32.88	2745
32.92	2715
32.96	2720
33	2820
33.04	2730
33.08	2745
33.12	2655
33.16	2635
33.2	2840
33.24	2810
33.28	2865
33.32	2550
33.36	2615
33.4	2645
33.44	2620
33.48	2485
33.52	2685
33.56	2735
33.6	2475
33.64	2635
33.68	2560
33.72	2460
33.76	2600
33.8	2405
33.84	2580
33.88	2365
33.92	2450
33.96	2300
34	2655
34.04	2525
34.08	2635
34.12	2665
34.16	2570
34.2	2695
34.24	2510
34.28	2455
34.32	2465
34.36	2475
34.4	2365
34.44	2230
34.48	2495
34.52	2560
34.56	2310
34.6	2390
34.64	2480
34.68	2255
34.72	2450
34.76	2480
34.8	2290
34.84	2220
34.88	2485
34.92	2340
34.96	2485
35	2080
35.04	2300
35.08	2245
35.12	2290
35.16	2255
35.2	2295
35.24	2455
35.28	2140
35.32	2260
35.36	2225
35.4	2120
35.44	2185
35.48	2135
35.52	2145
35.56	2270
35.6	2280
35.64	2165
35.68	2085
35.72	2040
35.76	2155
35.8	2195
35.84	2170
35.88	2160
35.92	2290
35.96	2170
36	2035
36.04	2165
36.08	2120
36.12	2095
36.16	2090
36.2	2130
36.24	2195
36.28	2230
36.32	1955
36.36	2030
36.4	2015
36.44	2215
36.48	2060
36.52	2000
36.56	2095
36.6	1995
36.64	2235
36.68	1985
36.72	2070
36.76	2015
36.8	1950
36.84	2180
36.88	2050
36.92	1910
36.96	1845
37	2060
37.04	1960
37.08	2045
37.12	2045
37.16	1945
37.2	2030
37.24	1930
37.28	1885
37.32	1915
37.36	1940
37.4	2030
37.44	1970
37.48	1925
37.52	2035
37.56	1990
37.6	1730
37.64	1920
37.68	1955
37.72	1825
37.76	1905
37.8	1970
37.84	1980
37.88	1930
37.92	1915
37.96	1935
38	1850
38.04	1760
38.08	1860
38.12	1790
38.16	1895
38.2	1810
38.24	1845
38.28	1930
38.32	1775
38.36	1905
38.4	1725
38.44	1860
38.48	1735
38.52	1740
38.56	2010
38.6	1890
38.64	1935
38.68	1735
38.72	1790
38.76	1755
38.8	1750
38.84	1830
38.88	1715
38.92	1790
38.96	1780
39	1820
39.04	1760
39.08	1685
39.12	1750
39.16	1640
39.2	1795
39.24	1720
39.28	1715
39.32	1775
39.36	1610
39.4	1635
39.44	1700
39.48	1595
39.52	1725
39.56	1600
39.6	1635
39.64	1590
39.68	1550
39.72	1630
39.76	1735
39.8	1725
39.84	1550
39.88	1555
39.92	1640
39.96	1650
40	1680
40.04	1540
40.08	1670
40.12	1495
40.16	1475
40.2	1635
40.24	1755
40.28	1620
40.32	1585
40.36	1535
40.4	1565
40.44	1520
40.48	1545
40.52	1510
40.56	1515
40.6	1450
40.64	1680
40.68	1365
40.72	1485
40.76	1585
40.8	1520
40.84	1550
40.88	1485
40.92	1585
40.96	1560
41	1525
41.04	1620
41.08	1645
41.12	1670
41.16	1730
41.2	1820
41.24	1945
41.28	1810
41.32	1735
41.36	1780
41.4	1665
41.44	1685
41.48	1540
41.52	1475
41.56	1295
41.6	1430
41.64	1380
41.68	1555
41.72	1445
41.76	1400
41.8	1340
41.84	1435
41.88	1470
41.92	1290
41.96	1305
42	1460
42.04	1500
42.08	1285
42.12	1340
42.16	1450
42.2	1490
42.24	1335
42.28	1410
42.32	1350
42.36	1340
42.4	1310
42.44	1380
42.48	1390
42.52	1325
42.56	1445
42.6	1440
42.64	1405
42.68	1185
42.72	1270
42.76	1355
42.8	1375
42.84	1360
42.88	1155
42.92	1370
42.96	1445
43	1285
43.04	1215
43.08	1375
43.12	1280
43.16	1355
43.2	1295
43.24	1255
43.28	1265
43.32	1290
43.36	1300
43.4	1260
43.44	1215
43.48	1115
43.52	1255
43.56	1275
43.6	1185
43.64	1335
43.68	1260
43.72	1330
43.76	1090
43.8	1330
43.84	1225
43.88	1215
43.92	1185
43.96	1190
44	1285
44.04	1250
44.08	1210
44.12	1280
44.16	1205
44.2	1055
44.24	1265
44.28	1215
44.32	1230
44.36	1270
44.4	1235
44.44	1110
44.48	1090
44.52	1305
44.56	1250
44.6	1190
44.64	1215
44.68	1165
44.72	1095
44.76	1145
44.8	1025
44.84	1180
44.88	1155
44.92	1305
44.96	1300
45	1180
45.04	1175
45.08	1035
45.12	1060
45.16	1275
45.2	1065
45.24	1200
45.28	1110
45.32	1145
45.36	1090
45.4	1275
45.44	1100
45.48	1150
45.52	1135
45.56	950
45.6	1190
45.64	1175
45.68	1085
45.72	1085
45.76	1150
45.8	1145
45.84	1100
45.88	1190
45.92	1110
45.96	920
46	1140
46.04	1130
46.08	925
46.12	1145
46.16	1165
46.2	1030
46.24	990
46.28	1045
46.32	1095
46.36	1005
46.4	1040
46.44	1125
46.48	1130
46.52	945
46.56	1065
46.6	1130
46.64	1010
46.68	1100
46.72	1045
46.76	970
46.8	1010
46.84	1070
46.88	1065
46.92	970
46.96	1070
47	940
47.04	1250
47.08	960
47.12	1085
47.16	995
47.2	1005
47.24	1045
47.28	1150
47.32	1040
47.36	1025
47.4	1065
47.44	1135
47.48	1115
47.52	995
47.56	1005
47.6	860
47.64	985
47.68	1035
47.72	980
47.76	1005
47.8	970
47.84	990
47.88	1065
47.92	1025
47.96	975
48	1005
48.04	1075
48.08	975
48.12	1075
48.16	1020
48.2	980
48.24	860
48.28	985
48.32	965
48.36	945
48.4	925
48.44	1005
48.48	965
48.52	1020
48.56	1055
48.6	1035
48.64	990
48.68	865
48.72	1005
48.76	925
48.8	1010
48.84	900
48.88	990
48.92	980
48.96	990
49	1005
49.04	890
49.08	905
49.12	990
49.16	1085
49.2	900
49.24	965
49.28	1080
49.32	1070
49.36	1070
49.4	965
49.44	925
49.48	1050
49.52	1015
49.56	1100
49.6	930
49.64	1025
49.68	1145
49.72	1105
49.76	1120
49.8	1225
49.84	1465
49.88	1400
49.92	1655
49.96	1830
50	1860
50.04	1985
50.08	1845
50.12	1950
50.16	1720
50.2	1635
50.24	1455
50.28	1400
50.32	1205
50.36	1145
50.4	1075
50.44	1050
50.48	900
50.52	915
50.56	1000
50.6	1035
50.64	945
50.68	855
50.72	880
50.76	880
50.8	935
50.84	875
50.88	885
50.92	945
50.96	870
51	870
51.04	860
51.08	915
51.12	895
51.16	870
51.2	845
51.24	920
51.28	910
51.32	715
51.36	885
51.4	850
51.44	835
51.48	875
51.52	800
51.56	890
51.6	880
51.64	860
51.68	820
51.72	805
51.76	840
51.8	940
51.84	960
51.88	745
51.92	755
51.96	885
52	845
52.04	935
52.08	790
52.12	795
52.16	775
52.2	815
52.24	840
52.28	815
52.32	780
52.36	960
52.4	850
52.44	770
52.48	760
52.52	850
52.56	860
52.6	960
52.64	855
52.68	860
52.72	805
52.76	815
52.8	755
52.84	925
52.88	890
52.92	795
52.96	855
53	885
53.04	700
53.08	775
53.12	735
53.16	795
53.2	840
53.24	1015
53.28	865
53.32	765
53.36	790
53.4	885
53.44	875
53.48	875
53.52	885
53.56	930
53.6	1070
53.64	1040
53.68	1270
53.72	1390
53.76	1400
53.8	1330
53.84	1135
53.88	1210
53.92	1165
53.96	1020
54	1070
54.04	835
54.08	915
54.12	920
54.16	815
54.2	750
54.24	785
54.28	865
54.32	815
54.36	770
54.4	925
54.44	780
54.48	875
54.52	870
54.56	855
54.6	845
54.64	790
54.68	785
54.72	890
54.76	765
54.8	735
54.84	850
54.88	860
54.92	775
54.96	990
55	780
55.04	705
55.08	775
55.12	765
55.16	800
55.2	695
55.24	870
55.28	765
55.32	825
55.36	825
55.4	780
55.44	885
55.48	825
55.52	870
55.56	810
55.6	790
55.64	790
55.68	775
55.72	790
55.76	740
55.8	890
55.84	790
55.88	810
55.92	755
55.96	750
56	750
56.04	780
56.08	800
56.12	800
56.16	765
56.2	730
56.24	820
56.28	795
56.32	795
56.36	910
56.4	760
56.44	785
56.48	760
56.52	800
56.56	765
56.6	760
56.64	670
56.68	750
56.72	920
56.76	865
56.8	725
56.84	790
56.88	805
56.92	700
56.96	730
57	760
57.04	820
57.08	790
57.12	805
57.16	880
57.2	745
57.24	845
57.28	720
57.32	760
57.36	760
57.4	855
57.44	845
57.48	750
57.52	775
57.56	745
57.6	835
57.64	745
57.68	845
57.72	955
57.76	835
57.8	870
57.84	795
57.88	725
57.92	805
57.96	850
58	890
58.04	820
58.08	805
58.12	840
58.16	780
58.2	740
58.24	755
58.28	820
58.32	865
58.36	845
58.4	805
58.44	905
58.48	920
58.52	745
58.56	860
58.6	965
58.64	930
58.68	800
58.72	855
58.76	970
58.8	810
58.84	880
58.88	900
58.92	915
58.96	1030
59	1100
59.04	905
59.08	985
59.12	1005
59.16	1015
59.2	975
59.24	940
59.28	1070
59.32	895
59.36	920
59.4	930
59.44	1025
59.48	765
59.52	705
59.56	775
59.6	900
59.64	860
59.68	845
59.72	765
59.76	860
59.8	855
59.84	755
59.88	785
59.92	825
59.96	915
60	860
60.04	925
60.08	840
60.12	890
60.16	870
60.2	735
60.24	935
60.28	825
60.32	965
60.36	900
60.4	775
60.44	870
60.48	960
60.52	925
60.56	925
60.6	885
60.64	980
60.68	965
60.72	960
60.76	965
60.8	890
60.84	885
60.88	965
60.92	850
60.96	840
61	900
61.04	990
61.08	930
61.12	900
61.16	935
61.2	910
61.24	1010
61.28	900
61.32	945
61.36	920
61.4	860
61.44	885
61.48	965
61.52	795
61.56	910
61.6	1010
61.64	965
61.68	915
61.72	880
61.76	925
61.8	875
61.84	940
61.88	905
61.92	960
61.96	955
62	980
62.04	1080
62.08	970
62.12	920
62.16	960
62.2	915
62.24	1075
62.28	1050
62.32	960
62.36	785
62.4	880
62.44	1000
62.48	940
62.52	980
62.56	1035
62.6	900
62.64	925
62.68	975
62.72	970
62.76	995
62.8	855
62.84	880
62.88	970
62.92	955
62.96	1090
63	970
63.04	1025
63.08	1040
63.12	1045
63.16	940
63.2	995
63.24	930
63.28	970
63.32	1050
63.36	965
63.4	925
63.44	1055
63.48	1060
63.52	1000
63.56	1000
63.6	1045
63.64	1060
63.68	980
63.72	1120
63.76	1065
63.8	1100
63.84	1045
63.88	965
63.92	950
63.96	1085
64	955
64.04	1110
64.08	870
64.12	1000
64.16	980
64.2	965
64.24	1035
64.28	1005
64.32	1100
64.36	1110
64.4	1090
64.44	975
64.48	905
64.52	1075
64.56	1000
64.6	980
64.64	1045
64.68	940
64.72	1110
64.76	1080
64.8	1075
64.84	1050
64.88	1045
64.92	915
64.96	1085
65	1070
65.04	990
65.08	1060
65.12	910
65.16	1025
65.2	965
65.24	1080
65.28	1020
65.32	940
65.36	1050
65.4	1070
65.44	930
65.48	960
65.52	1045
65.56	1135
65.6	1020
65.64	1030
65.68	925
65.72	1040
65.76	930
65.8	1020
65.84	985
65.88	1055
65.92	950
65.96	995
66	1035
66.04	1080
66.08	1030
66.12	1005
66.16	920
66.2	880
66.24	1060
66.28	965
66.32	965
66.36	930
66.4	1005
66.44	970
66.48	1085
66.52	1030
66.56	915
66.6	1030
66.64	1060
66.68	980
66.72	910
66.76	835
66.8	920
66.84	1025
66.88	1100
66.92	855
66.96	970
67	975
67.04	860
67.08	920
67.12	875
67.16	985
67.2	1035
67.24	785
67.28	940
67.32	1015
67.36	925
67.4	880
67.44	955
67.48	845
67.52	1020
67.56	1000
67.6	980
67.64	990
67.68	890
67.72	910
67.76	850
67.8	905
67.84	805
67.88	905
67.92	905
67.96	915
68	890
68.04	915
68.08	815
68.12	870
68.16	865
68.2	820
68.24	865
68.28	920
68.32	890
68.36	835
68.4	785
68.44	875
68.48	925
68.52	760
68.56	780
68.6	815
68.64	810
68.68	815
68.72	860
68.76	865
68.8	825
68.84	815
68.88	870
68.92	930
68.96	885
69	765
69.04	940
69.08	860
69.12	945
69.16	800
69.2	810
69.24	765
69.28	935
69.32	755
69.36	785
69.4	795
69.44	720
69.48	795
69.52	720
69.56	845
69.6	940
69.64	885
69.68	780
69.72	840
69.76	785
69.8	810
69.84	750
69.88	825
69.92	905
69.96	820
70	890
70.04	760
70.08	775
70.12	815
70.16	745
70.2	775
70.24	795
70.28	780
70.32	795
70.36	935
70.4	795
70.44	765
70.48	825
70.52	715
70.56	770
70.6	815
70.64	860
70.68	800
70.72	810
70.76	790
70.8	835
70.84	865
70.88	735
70.92	765
70.96	890
71	815
71.04	805
71.08	825
71.12	780
71.16	815
71.2	780
71.24	755
71.28	740
71.32	745
71.36	875
71.4	825
71.44	760
71.48	780
71.52	780
71.56	800
71.6	610
71.64	795
71.68	820
71.72	715
71.76	700
71.8	800
71.84	825
71.88	850
71.92	780
71.96	785
72	895
72.04	750
72.08	695
72.12	795
72.16	840
72.2	775
72.24	750
72.28	760
72.32	750
72.36	725
72.4	730
72.44	940
72.48	835
72.52	885
72.56	775
72.6	780
72.64	860
72.68	725
72.72	820
72.76	685
72.8	730
72.84	750
72.88	875
72.92	790
72.96	990
73	780
73.04	845
73.08	705
73.12	710
73.16	850
73.2	785
73.24	780
73.28	685
73.32	745
73.36	750
73.4	840
73.44	730
73.48	710
73.52	695
73.56	770
73.6	725
73.64	690
73.68	770
73.72	880
73.76	870
73.8	860
73.84	775
73.88	855
73.92	845
73.96	945
74	775
74.04	750
74.08	785
74.12	805
74.16	805
74.2	795
74.24	850
74.28	690
74.32	910
74.36	735
74.4	765
74.44	800
74.48	810
74.52	795
74.56	720
74.6	870
74.64	835
74.68	850
74.72	825
74.76	850
74.8	795
74.84	850
74.88	740
74.92	810
74.96	755
75	885
75.04	870
75.08	815
75.12	805
75.16	770
75.2	735
75.24	900
75.28	800
75.32	910
75.36	825
75.4	815
75.44	860
75.48	870
75.52	785
75.56	825
75.6	745
75.64	780
75.68	800
75.72	765
75.76	785
75.8	820
75.84	670
75.88	770
75.92	840
75.96	805
76	760
76.04	815
76.08	790
76.12	740
76.16	795
76.2	935
76.24	900
76.28	855
76.32	735
76.36	845
76.4	915
76.44	855
76.48	910
76.52	1000
76.56	910
76.6	775
76.64	820
76.68	925
76.72	855
76.76	850
76.8	840
76.84	965
76.88	835
76.92	750
76.96	795
77	770
77.04	730
77.08	770
77.12	665
77.16	855
77.2	845
77.24	850
77.28	725
77.32	775
77.36	815
77.4	845
77.44	820
77.48	710
77.52	735
77.56	710
77.6	820
77.64	855
77.68	800
77.72	715
77.76	640
77.8	670
77.84	890
77.88	730
77.92	710
77.96	685
78	685
78.04	670
78.08	780
78.12	585
78.16	650
78.2	740
78.24	660
78.28	785
78.32	745
78.36	735
78.4	740
78.44	745
78.48	735
78.52	670
78.56	730
78.6	665
78.64	650
78.68	685
78.72	770
78.76	735
78.8	675
78.84	730
78.88	790
78.92	660
78.96	710
79	695
79.04	730
79.08	635
79.12	620
79.16	800
79.2	645
79.24	685
79.28	755
79.32	785
79.36	720
79.4	620
79.44	655
79.48	725
79.52	765
79.56	730
79.6	595
79.64	605
79.68	645
79.72	670
79.76	640
79.8	690
79.84	670
79.88	605
79.92	705
79.96	630
80	685